{
   "resourceType":"Bundle",
   "type":"document",
   "timestamp":"2021-11-08T10:40:01Z",
   "identifier":{
      "system":"http://www.macsys.be/hl7/bundle",
      "value":"BelgiumHL7Lab.81365677998.815333041"
   },
   "entry":[
      {
         "fullUrl":"Composition/815333041",
         "resource":{
            "resourceType":"Composition",
            "id":"815333041",
            "meta":{
               "profile":[
                  "https://www.ehealth.fgov.be/standards/fhir/StructureDefinition/be-laboratory-report-composition"
               ]
            },
            "identifier":{
               "system":"http://www.macsys.be/hl7/Composition",
               "value":"815333041"
            },
            "status":"preliminary",
            "type":{
               "coding":[
                  {
                     "system":"http://loinc.org",
                     "code":"11502-2"
                  }
               ],
               "text":"Laboratory report"
            },
            "subject":{
               "reference":"Patient/5473807"
            },
            "date":"2021-11-08T10:40:01Z",
            "author":[
               {
                  "reference":"Practitioner/100"
               }
            ],
            "title":"Laboratory Report",
            "section":[
               {
                  "entry":[
                     {
                        "reference":"DiagnosticReport/815333041"
                     }
                  ]
               }
            ]
         }
      },
      {
         "fullUrl":"DiagnosticReport/815333041",
         "resource":{
            "resourceType":"DiagnosticReport",
            "id":"815333041",
            "meta":{
               "versionId":"1",
               "profile":[
                  "https://www.ehealth.fgov.be/standards/fhir/StructureDefinition/be-laboratory-report"
               ]
            },
            "language":"nl",
            "identifier":[
               {
                  "system":"http://www.macsys.be/hl7/DiagnosticReport",
                  "value":"815333041"
               }
            ],
            "basedOn":[
               {
                  "reference":"ServiceRequest/815333041"
               }
            ],
            "status":"preliminary",
            "category":[
               {
                  "coding":[
                     {
                        "system":"http://terminology.hl7.org/CodeSystem/v2-0074",
                        "code":"LAB",
                        "display":"Laboratory"
                     }
                  ]
               }
            ],
            "code":{
               "coding":[
                  {
                     "system":"http://loinc.org",
                     "code":"26436-6",
                     "display":"Laboratory studies (set)"
                  }
               ]
            },
            "subject":{
               "reference":"Patient/5473807"
            },
            "effectiveDateTime":"2021-11-04T00:00:00Z",
            "issued":"2021-11-08T10:40:01Z",
            "performer":[
               {
                  "reference":"Organization/81365677998"
               }
            ],
            "resultsInterpreter":[
               {
                  "reference":"Practitioner/100"
               }
            ],
            "specimen":[
               {
                  "reference":"Specimen/001815333041"
               }
            ],
            "result":[
               {
                  "reference":"Observation/Observation.1.0"
               }
            ]
         }
      },
      {
         "fullUrl":"Specimen/001815333041",
         "resource":{
            "resourceType":"Specimen",
            "id":"001815333041",
            "meta":{
               "profile":[
                  "https://www.ehealth.fgov.be/standards/fhir/StructureDefinition/be-specimen-laboratory"
               ]
            },
            "identifier":[
               {
                  "system":"http://www.macsys.be/hl7/Specimen",
                  "value":"001815333041"
               }
            ],
            "status":"available",
            "type":{
               "coding":[
                  {
                     "system":"http://snomed.info/sct",
                     "code":"119297000",
                     "display":"Blood specimen"
                  }
               ],
               "text":"Serum"
            },
            "subject":{
               "reference":"Patient/5473807"
            },
            "receivedTime":"2021-11-04T13:02:36Z",
            "collection":{
               "collectedDateTime":"2021-11-04T00:00:00Z",
               "collector":{
                  "reference":"Practitioner/8152"
               }
            }
         }
      },
      {
         "fullUrl":"Observation/Observation.1.0",
         "resource":{
            "resourceType":"Observation",
            "id":"Observation.1.0",
            "meta":{
               "profile":[
                  "https://www.ehealth.fgov.be/standards/fhir/StructureDefinition/be-observation-laboratory"
               ]
            },
            "status":"preliminary",
            "code":{
               "text":"INFLAMMATIE"
            },
            "subject":{
               "reference":"Patient/5473807"
            },
            "effectiveDateTime":"2021-11-04T00:00:00Z",
            "performer":[
               {
                  "reference":"Practitioner/100"
               }
            ],
            "hasMember":[
               {
                  "reference":"Observation/Observation.1.0.1"
               }
            ]
         }
      },
      {
         "fullUrl":"Observation/Observation.1.0.1",
         "resource":{
            "resourceType":"Observation",
            "id":"Observation.1.0.1",
            "meta":{
               "profile":[
                  "https://www.ehealth.fgov.be/standards/fhir/StructureDefinition/be-observation-laboratory"
               ]
            },
            "status":"final",
            "code":{
               "coding":[
                  {
                     "system":"http://loinc.org",
                     "code":"1988-5"
                  }
               ],
               "text":"CRP"
            },
            "subject":{
               "reference":"Patient/5473807"
            },
            "effectiveDateTime":"2021-11-04T00:00:00Z",
            "issued":"2021-11-04T13:04:05Z",
            "performer":[
               {
                  "reference":"Practitioner/100"
               }
            ],
            "valueQuantity":{
               "value":0.7000000000,
               "unit":"mg/L",
               "system":"http://unitsofmeasure.org",
               "code":"mg/L"
            },
            "interpretation":[
               {
                  "coding":[
                     {
                        "system":"http://terminology.hl7.org/CodeSystem/v3-ObservationInterpretation",
                        "code":"N"
                     }
                  ]
               }
            ],
            "specimen":{
               "reference":"Specimen/001815333041"
            },
            "referenceRange":[
               {
                  "high":{
                     "value":5.00000,
                     "unit":"mg/L",
                     "system":"http://unitsofmeasure.org",
                     "code":"mg/L"
                  }
               }
            ]
         }
      },
      {
         "fullUrl":"Organization/81365677998",
         "resource":{
            "resourceType":"Organization",
            "id":"81365677998",
            "meta":{
               "profile":[
                  "https://www.ehealth.fgov.be/standards/fhir/StructureDefinition/be-organization"
               ]
            },
            "identifier":[
               {
                  "use":"official",
                  "type":{
                     "coding":[
                        {
                           "system":"http://terminology.hl7.org/CodeSystem/v2-0203",
                           "code":"MD",
                           "display":"Medical License number"
                        }
                     ]
                  },
                  "system":"https://www.ehealth.fgov.be/standards/fhir/NamingSystem/nihdi",
                  "value":"81365677998"
               }
            ],
            "active":true,
            "type":[
               {
                  "coding":[
                     {
                        "system":"https://www.ehealth.fgov.be/standards/fhir/CodeSystem/cd-hcparty",
                        "code":"orglaboratory"
                     }
                  ]
               }
            ],
            "name":"CENTRUM VOOR MEDISCHE ANALYSE",
            "telecom":[
               {
                  "system":"phone",
                  "value":"014/28.50.00",
                  "use":"work"
               },
               {
                  "system":"fax",
                  "value":"014/22.56.08",
                  "use":"work"
               },
               {
                  "system":"email",
                  "value":"info@cma.be",
                  "use":"work"
               },
               {
                  "system":"url",
                  "value":"http://www.cma.be",
                  "use":"work"
               }
            ],
            "address":[
               {
                  "use":"work",
                  "type":"both",
                  "line":[
                     "Oud-Strijderslaan 199"
                  ],
                  "city":"Herentals",
                  "postalCode":"2200",
                  "country":"BE"
               }
            ]
         }
      },
      {
         "fullUrl":"Practitioner/8152",
         "resource":{
            "resourceType":"Practitioner",
            "id":"8152",
            "meta":{
               "profile":[
                  "https://www.ehealth.fgov.be/standards/fhir/StructureDefinition/be-practitioner"
               ]
            },
            "identifier":[
               {
                  "use":"official",
                  "system":"https://www.ehealth.fgov.be/standards/fhir/NamingSystem/nihdi",
                  "value":"11849242860"
               }
            ],
            "name":[
               {
                  "use":"official",
                  "family":"Waegemans",
                  "given":[
                     "Stefan"
                  ],
                  "prefix":[
                     "Dr."
                  ]
               }
            ],
            "telecom":[
               {
                  "system":"email",
                  "value":"stefan.waegemans@cma.be",
                  "use":"work"
               },
               {
                  "system":"fax",
                  "value":"(+32)11/243291",
                  "use":"work"
               },
               {
                  "system":"phone",
                  "value":"(+32)473/924346",
                  "use":"mobile"
               },
               {
                  "system":"phone",
                  "value":"(+32)11/225288",
                  "use":"work"
               }
            ],
            "address":[
               {
                  "use":"work",
                  "type":"both",
                  "line":[
                     "Willekensmolenstraat 88/2"
                  ],
                  "city":"Hasselt",
                  "postalCode":"3500",
                  "country":"BE"
               }
            ],
            "gender":"unknown"
         }
      },
      {
         "fullUrl":"Practitioner/100",
         "resource":{
            "resourceType":"Practitioner",
            "id":"100",
            "meta":{
               "profile":[
                  "https://www.ehealth.fgov.be/standards/fhir/StructureDefinition/be-practitioner"
               ]
            },
            "identifier":[
               {
                  "use":"official",
                  "system":"https://www.ehealth.fgov.be/standards/fhir/NamingSystem/nihdi",
                  "value":"81365677001"
               }
            ],
            "name":[
               {
                  "use":"official",
                  "family":"Testdokter",
                  "given":[
                     "Test"
                  ],
                  "prefix":[
                     "Dr."
                  ]
               }
            ],
            "telecom":[
               {
                  "system":"email",
                  "value":"lander.verstappen@macsys.be",
                  "use":"work"
               },
               {
                  "system":"fax",
                  "value":"(+32)14/225608",
                  "use":"work"
               },
               {
                  "system":"phone",
                  "value":"(+32)486/734311",
                  "use":"mobile"
               },
               {
                  "system":"phone",
                  "value":"(+32)14/285000",
                  "use":"work"
               },
               {
                  "system":"phone",
                  "value":"(+32)499/520100",
                  "use":"work"
               },
               {
                  "system":"url",
                  "value":"https://test.be/",
                  "use":"work"
               }
            ],
            "address":[
               {
                  "use":"work",
                  "type":"both",
                  "line":[
                     "Putrandje 5"
                  ],
                  "city":"Bouwel",
                  "postalCode":"2288",
                  "country":"BE"
               }
            ],
            "gender":"unknown"
         }
      },
      {
         "fullUrl":"Patient/5473807",
         "resource":{
            "resourceType":"Patient",
            "id":"5473807",
            "meta":{
               "profile":[
                  "https://www.ehealth.fgov.be/standards/fhir/StructureDefinition/be-patient"
               ]
            },
            "identifier":[
               {
                  "use":"official",
                  "system":"https://www.ehealth.fgov.be/standards/fhir/NamingSystem/ssin",
                  "value":"66042620739"
               }
            ],
            "active":true,
            "name":[
               {
                  "use":"official",
                  "family":"Tollenaere",
                  "given":[
                     "Tom"
                  ]
               }
            ],
            "telecom":[
               {
                  "system":"phone",
                  "value":"0497054020",
                  "use":"home"
               },
               {
                  "system":"email",
                  "value":"TOM.TOLLENAERE@MACSYS.BE",
                  "use":"home"
               }
            ],
            "address":[
               {
                  "use":"home",
                  "type":"both",
                  "line":[
                     "Beukenlaan 63/A"
                  ],
                  "city":"Rotselaar",
                  "postalCode":"3110",
                  "country":"BE"
               }
            ],
            "gender":"male",
            "birthDate":"1966-04-26"
         }
      },
      {
         "fullUrl":"ServiceRequest/815333041",
         "resource":{
            "resourceType":"ServiceRequest",
            "id":"815333041",
            "identifier":[
               {
                  "system":"http://www.macsys.be/hl7/ServiceRequest",
                  "value":"815333041"
               }
            ],
            "status":"active",
            "intent":"order",
            "category":[
               {
                  "coding":[
                     {
                        "system":"http://snomed.info/sct",
                        "code":"108252007",
                        "display":"Laboratory procedure"
                     }
                  ]
               }
            ],
            "subject":{
               "reference":"Patient/5473807"
            },
            "priority":"routine",
            "authoredOn":"2021-11-04T13:02:00Z",
            "requester":{
               "reference":"Practitioner/8152"
            }
         }
      }
   ]
}